Millis,Seconds,AccX,AccY,AccZ,GyroX,GyroY,GyroZ
9699,9.699,-0.3,0.01,0.97,11.88,-0.94,-0.45
9790,9.79,-0.26,0.01,0.97,6.23,7.41,1.35
9877,9.877,-0.3,0.01,0.97,6.02,11.61,1.7
9965,9.965,-0.27,0.04,0.93,8.26,18.41,3.21
10054,10.054,-0.28,0.06,0.95,10.74,12.24,1.85
10144,10.144,-0.28,0.06,0.97,7.32,5.96,-1.87
10233,10.233,-0.27,0.06,0.94,2.77,4.18,-1.37
10323,10.323,-0.24,0.08,0.9,17.58,8.28,-3.43
10414,10.414,-0.19,0.12,0.92,52.03,0.59,-0.55
10505,10.505,-0.22,0.18,0.97,54.42,6.79,-0.71
10595,10.595,-0.23,0.29,0.95,74.42,2.1,-0.21
10685,10.685,-0.23,0.37,0.91,62.92,7.41,-2.68
10776,10.776,-0.25,0.47,0.83,125.16,37.87,10.54
10868,10.868,-0.33,0.77,1.07,141,27.84,36.57
10960,10.96,-0.43,0.99,1.32,-315.11,-13.76,-70.01
11057,11.057,-0.23,0.35,0.4,-299.6,91.7,38.83
11150,11.15,-0.26,0.06,0.71,70.51,71.31,43.55
11242,11.242,-0.44,-0.01,0.78,-35.48,-49.12,15.79
11336,11.336,-0.39,-0.22,0.7,17.12,-30.34,9.13
11428,11.428,-0.39,0.22,0.75,66.52,-86.25,-38.99
11523,11.523,-1.04,0.27,0.41,186.63,131,37.68
11616,11.616,-0.49,0.62,1,123.74,15.48,41.5
11709,11.709,-0.52,0.67,0.9,88.45,13.87,16.75
11800,11.8,-0.47,0.74,0.9,59.18,-4.34,2.08
11890,11.89,-0.54,1,1.1,38.49,-21.75,-22.15
11984,11.984,-0.67,1.52,1.62,-289.36,-103.91,-52.29
12081,12.081,-0.12,0.6,0.06,-493.2,221.05,40.8
12176,12.176,0,-0.17,0.1,24.52,134.19,6.37
12267,12.267,-0.63,-0.15,0.6,-15.42,-38.4,42.81
12361,12.361,-0.48,-0.19,0.53,96.83,-95.82,36.8
12455,12.455,-0.26,0.04,0.9,49.24,-46.51,23.35
12548,12.548,-0.03,0.06,1.05,64.63,9.4,70.14
12639,12.639,-0.57,0.25,0.83,19.59,3.92,77.23
12729,12.729,-0.82,0.9,0.98,65.62,-81.41,56.48
12821,12.821,-0.57,0.6,0.93,71.41,36.56,3.44
12912,12.912,-0.47,0.62,0.93,19.06,7.37,-13.92
13003,13.003,-0.4,0.6,0.81,-26.32,-1.46,-26.55
13096,13.096,-0.32,0.53,0.79,-31.11,-6.45,-26.15
13191,13.191,-0.33,0.44,0.76,-23.07,0.42,-17.23
13283,13.283,-0.35,0.42,0.83,-18.78,-1.79,-14.5
13377,13.377,-0.31,0.37,0.9,-65.19,-14.34,-30.56
13471,13.471,-0.26,0.32,0.77,-26.85,-9.87,-24.15
13564,13.564,-0.14,0.35,0.77,123.3,9.41,-20.35
13658,13.658,-0.35,0.47,0.86,139.74,-21.44,-11.45
13752,13.752,-0.41,0.7,1.17,96.55,-13.38,-1.83
13845,13.845,-0.59,1.42,1.75,-23.1,-28.49,-10.7
13939,13.939,-0.07,0.77,0.63,-493.2,0.07,-40.48
14033,14.033,0.09,0,-0.42,151.73,513.87,40.78
14128,14.128,-0.61,-0.08,0.45,-21.57,33.2,-24.56
14222,14.222,-0.55,-0.26,0.44,-35.86,-65.82,25.27
14317,14.317,-0.59,-0.18,0.4,36.64,-107.32,43.47
14411,14.411,-0.26,-0.04,0.64,28.78,-132.01,48.37
14507,14.507,-0.25,0.16,0.82,-7.57,-40.42,-13.11
14600,14.6,2,0.14,2,436.67,-359.52,269.2
14694,14.694,-0.59,0.25,1.25,67.36,-70.94,62.66
14787,14.787,-0.31,0.33,1.03,82.63,43.64,-6.09
14878,14.878,-0.3,0.56,0.95,1.82,9.95,-3
14968,14.968,-0.27,0.49,0.88,-25.28,14.06,-3.93
15060,15.06,-0.27,0.41,0.82,-28.3,9.98,-2.61
15152,15.152,-0.23,0.34,0.85,-24.24,20.39,-10.8
15246,15.246,-0.27,0.32,0.77,6.38,1.06,-6.88
15335,15.335,-0.21,0.57,0.85,165.42,30.85,32.25
15427,15.427,-0.32,0.55,0.8,177.47,35.4,17.85
15520,15.52,-0.6,1.05,1.22,53.94,-36.25,-6.07
15612,15.612,-0.6,1.56,1.63,-248.44,-53.82,-43.31
15709,15.709,-0.27,0.74,0,-493.2,72.57,-13.84
15804,15.804,0.12,-0.24,0,85.79,275.37,-13.86
15899,15.899,-0.62,-0.46,0.28,9.67,-1.35,64.66
15990,15.99,-0.51,-0.22,0.83,111.9,-180.39,11.29
16086,16.086,-0.57,0.21,0.8,73.58,63.96,-30.07
16179,16.179,-0.47,0.18,0.86,-43.66,-53.14,-28.48
16273,16.273,-0.33,0.36,0.54,-14.73,-19.78,-19.64
16368,16.368,0.33,0.4,0.51,207.38,50.33,103.75
16460,16.46,-0.42,0.51,1.07,9.06,-2.83,2.81
16549,16.549,-0.56,0.45,0.93,-22.78,-2.85,45.23
16643,16.643,-0.5,0,1.01,31.96,187.54,44.69
16735,16.735,-0.59,0.31,0.8,10.89,46.36,53.29
16826,16.826,-0.86,0.93,0.33,125.85,231.02,-9
16920,16.92,-0.89,0.76,0.19,-51.66,14.38,-16.97
17013,17.013,-0.79,0.51,0.33,-30.07,9.11,-12.35
17106,17.106,-0.87,0.28,0.34,-42.85,46.32,-27.35
17200,17.2,-0.89,0.22,0.31,-46.16,76.82,-21.09
17293,17.293,-0.8,0.29,0.24,-79.31,133.77,-26.35
17388,17.388,-0.96,0.41,0.17,-34.32,145.15,-25.42
17482,17.482,-1.02,0.18,-0.01,1.48,171.51,-24.15
17576,17.576,-0.88,0.22,-0.28,-20.15,141.89,-18.18
17672,17.672,-0.88,0.31,-0.46,-3.23,171.31,-9.96
17766,17.766,-0.71,0.26,-0.7,-3.74,35.92,0.89
17857,17.857,-0.72,0.22,-0.68,-1.66,-15.65,16.78
17950,17.95,-0.83,0.32,-0.58,-0.23,-129.38,9.52
18044,18.044,-0.83,0.29,-0.29,-1.95,-107.75,13.12
18139,18.139,-0.93,0.36,0.07,-67.31,-137.93,21.64
18234,18.234,-0.72,0.5,0.1,-34.06,-90.66,38.49
18327,18.327,-1.1,0.33,0.29,50.46,-118.16,-35.84
18421,18.421,-0.74,0.27,0.46,50.78,-39.06,-29.2
18515,18.515,-0.6,0.25,0.43,-2.45,39.19,0.55
18606,18.606,-0.63,0.33,0.42,12.38,31.69,17.88
18698,18.698,-0.71,0.33,0.36,8.92,-14.04,18.25
18789,18.789,-0.86,0.38,0.45,5.53,8.56,11.44
18878,18.878,-0.84,0.48,0.44,-8.1,24.91,17.26
18970,18.97,-0.83,0.48,0.45,-3.26,37.6,6.42
19058,19.058,0,0,0,7.06,13.6,-1.46
19152,19.152,-0.81,0.38,0.36,-2.68,26.9,-5.49
19245,19.245,-0.82,0.43,0.31,-0.65,32.88,-0.56
19336,19.336,-0.81,0.42,0.31,-0.24,7.9,-4.73
19427,19.427,-0.83,0.42,0.32,4.26,-4.48,-0.25
19517,19.517,-0.79,0.42,0.34,11.47,8.21,2.14
19606,19.606,-0.83,0.42,0.35,14.48,7.15,-2.45
19697,19.697,-0.83,0.41,0.35,20.77,9.49,-7.89
19787,19.787,-0.83,0.4,0.33,24.66,-13.18,-14
19880,19.88,-0.79,0.37,0.42,42.05,-33.58,-18.93
19975,19.975,-0.75,0.4,0.37,76.2,-72.92,-19.2
20068,20.068,-0.83,0.37,0.53,30.83,-103.44,-15.74
20163,20.163,-0.68,0.41,0.65,30.11,-51.55,-13.77
20256,20.256,-0.58,0.46,0.74,-1.03,-57.39,4.52
20347,20.347,-0.47,0.5,0.84,-4.99,-20.81,17.99
20441,20.441,-0.52,0.5,0.83,-28.84,-20.72,-7.34
20534,20.534,-0.42,0.4,0.7,-18.91,-36.37,-25.28
20629,20.629,-0.16,0.42,0.67,53.03,-43.9,-27.2
20722,20.722,-0.22,0.56,0.76,175.3,-19.06,-6.7
20815,20.815,-0.36,0.77,0.87,99.01,-12.62,23.36
20909,20.909,-0.57,1.27,1.26,21.36,-49.36,-7.25
21001,21.001,-0.23,0.68,1.14,-493.2,-7.26,-12.19
21096,21.096,-0.13,-0.07,-0.12,-173.46,330.36,82.77
21192,21.192,-0.36,-0.13,0.6,151.85,138.18,51.75
21286,21.286,-0.67,-0.15,0.79,23.29,-111.99,1.3
21381,21.381,-0.5,0.11,0.6,113.01,-211.07,6.62
21474,21.474,-0.33,0.31,0.8,-27.78,-68.3,-5.08
21568,21.568,-0.3,0.25,0.94,39.24,7.25,-8.79
21658,21.658,-0.45,0.71,1.25,2.25,-26.65,48.72
21749,21.749,-0.43,0.33,1.1,-18.82,45.51,18.28
21842,21.842,-0.39,0.25,0.95,-7.19,29.29,12.71
21934,21.934,-0.33,0.34,0.94,7.35,1.25,-8.07
22024,22.024,-0.11,0.16,0.89,79.38,39.78,-30.76
22116,22.116,-0.33,0.31,0.71,30.78,-24.4,3.94
22207,22.207,-0.25,0.53,0.74,109.74,-4.88,8.39
22299,22.299,-0.22,0.5,0.81,100.05,13.63,21.26
22391,22.391,-0.43,0.84,1.04,58.22,10.12,9.44
22481,22.481,-0.48,0.98,1.35,-36.36,-32.22,-8.1
22576,22.576,-0.2,1.08,1.54,-493.2,-9.26,-30.7
22670,22.67,0.07,0.39,-0.33,-165.28,454.96,44.52
22765,22.765,-0.17,-0.16,0.5,46.32,43.78,31.38
22857,22.857,-0.46,-0.19,0.69,-10.15,-70.34,46.17
22952,22.952,-0.56,-0.27,0.8,-43.72,-177.03,77.5
23048,23.048,-0.35,-0.29,0.67,22.32,-68.14,41.94
23141,23.141,-0.37,-0.19,0.64,16.2,-43.87,9.24
23234,23.234,-0.43,-0.24,1.06,40.14,5.11,48.08
23325,23.325,-0.81,0.1,0.72,100.97,67.92,-7.06
23418,23.418,-0.51,0.44,1.05,144.81,-8.13,6.11
23510,23.51,-0.49,0.53,1.02,57.09,15.26,-8.91
23601,23.601,-0.48,0.61,0.97,41.74,-7.2,-4.76
23693,23.693,-0.38,0.58,0.91,1.27,-6.28,-8.24
23783,23.783,-0.36,0.48,0.8,-17.83,0.99,-4.77
23874,23.874,-0.34,0.5,0.77,5.68,3.93,-3.32
23964,23.964,-0.3,0.44,0.68,1.32,8.39,-11.03
24054,24.054,-0.31,0.51,0.68,40.64,3.26,-8.59
24144,24.144,-0.38,0.62,0.9,94.66,-11.44,-12.01
24239,24.239,-0.58,1.04,1.44,102.2,-21.29,3.52
24331,24.331,-0.48,1.22,1.61,-296.12,-41.7,-66.79
24427,24.427,-0.38,0.7,0.73,-375.94,212.51,-39.95
24522,24.522,0.34,-0.33,0.19,126.28,505.73,-137.72
24619,24.619,-0.78,-0.18,0.16,-15.25,-51.49,74.14
24713,24.713,-0.7,-0.23,0.35,-6.78,-148.08,82.71
24807,24.807,-0.7,-0.11,0.69,19.13,-171.36,60.92
24902,24.902,-0.5,0.01,0.79,20.92,-109.09,34.65
24995,24.995,-0.35,0.14,0.66,-15.92,-110.75,2.87
25090,25.09,0.04,0.68,1.1,180.09,-33.49,33.04
25182,25.182,-0.65,0.54,1.39,143.71,11.15,46.29
25274,25.274,-0.61,0.48,1.18,24.45,26.04,9.55
25365,25.365,-0.4,0.58,0.9,1.27,23.12,3.58
25454,25.454,-0.26,0.58,0.77,0.35,18.36,0.07
25543,25.543,-0.29,0.55,0.75,5.67,14.9,2.81
25633,25.633,-0.3,0.56,0.73,10.31,12.33,0.92
25723,25.723,-0.29,0.59,0.73,46.31,16.91,-3.19
25816,25.816,-0.41,0.74,0.78,90.02,9.38,-5.83
25906,25.906,-0.47,0.86,1.13,68.06,-9.56,13.39
25997,25.997,-0.56,1.51,1.7,-163.68,-40.01,-22
26093,26.093,-0.57,0.48,0.4,-493.2,76.54,-148.58
26188,26.188,-0.06,-0.07,0.35,174.69,513.87,-131.92
26286,26.286,-0.49,-0.23,0.55,-45.54,-47.39,52.69
26380,26.38,-0.61,-0.29,0.4,-113.23,-95.61,84.98
26475,26.475,-0.65,-0.42,0.46,-16.29,-193.44,85.26
26571,26.571,-0.53,-0.12,0.79,-12.38,-199.81,83.29
26667,26.667,-0.77,-0.06,0.36,60.4,-104.49,-39.71
26763,26.763,0.49,0.09,0.67,408.49,4.8,112.58
26854,26.854,-0.8,0.89,1.09,182.86,27.51,16.07
26947,26.947,-0.61,0.82,1.2,74.84,31.72,-13.69
27039,27.039,-0.4,0.72,0.93,-5.34,4.5,-23.75
27130,27.13,-0.27,0.64,0.71,-13.03,10.7,-13.67
27225,27.225,-0.29,0.6,0.67,-9.51,-0.17,-1.92
27316,27.316,-0.32,0.61,0.7,4.46,1.61,-0.15
27405,27.405,-0.33,0.62,0.71,4.64,7.73,1.79
27494,27.494,-0.34,0.6,0.72,5.42,2.74,0.8
27582,27.582,-0.31,0.59,0.71,8.98,4.76,-3.6
27671,27.671,-0.3,0.61,0.73,15.22,5.93,-6.18
27762,27.762,-0.29,0.63,0.74,11.87,7.34,-6.38
27852,27.852,-0.29,0.62,0.73,6.25,10.76,-4.3
27942,27.942,-0.25,0.57,0.66,10.81,20.16,-3.46
28035,28.035,-0.27,0.65,0.61,34.81,12.93,4.92
28125,28.125,-0.35,0.72,0.77,58.34,-6.91,5.03
28216,28.216,-0.56,0.85,1.12,32.86,-29.61,-2.35
28308,28.308,-0.63,1.32,1.53,-33.14,-9.27,-29.87
28401,28.401,-0.34,1,0.74,-493.2,-52.52,-105.42
28498,28.498,0.43,0,-0.13,-16.21,434.54,-115.84
28594,28.594,0.22,-0.21,0.35,-50.04,44.07,42.87
28687,28.687,-0.6,-0.29,0.43,24.57,-16.66,63.82
28780,28.78,-0.66,-0.18,0.65,87.26,-114.71,46.1
28874,28.874,-0.25,0.12,0.6,86.84,-41.56,15.99
28967,28.967,-0.13,0.42,0.77,48.45,-40.78,24.49
29060,29.06,-0.15,0.28,1.12,47.45,6.88,85.15
29151,29.151,-0.78,1.03,1.42,125.36,21.9,53.36
29243,29.243,-0.74,0.6,1.14,20.86,18.47,1.15
29333,29.333,-0.52,0.6,0.82,-6.64,21.98,-6.35
29425,29.425,-0.38,0.61,0.71,-5.26,7.11,-12.18
29516,29.516,-0.32,0.61,0.65,-9.08,8.94,-8.53
29606,29.606,-0.32,0.57,0.65,3.1,8.5,-4.8
29697,29.697,-0.36,0.59,0.69,6.71,8.61,-0.71
29786,29.786,-0.38,0.58,0.71,10.34,7.81,-0.73
29877,29.877,-0.4,0.59,0.72,7.73,7.49,-3.55
29966,29.966,-0.38,0.58,0.7,6.05,10.68,-2.15
30056,30.056,-0.36,0.59,0.71,7.5,1.72,1.61
30145,30.145,-0.36,0.6,0.71,6.78,4.06,0.42
30233,30.233,-0.34,0.59,0.71,7.19,9.15,0.13
30321,30.321,-0.34,0.61,0.72,5.38,10.88,-0.87
30412,30.412,-0.34,0.59,0.73,5.18,12.93,0.43
30501,30.501,-0.34,0.6,0.72,3.42,13.14,-0.85
30592,30.592,-0.35,0.59,0.72,3.65,14.07,-2.04
30683,30.683,-0.35,0.59,0.73,5.71,11.57,-5.58
30773,30.773,-0.36,0.58,0.73,2.61,13.89,-10.21
30864,30.864,-0.37,0.57,0.72,-10.45,2.85,-3.71
30956,30.956,-0.33,0.57,0.73,0.54,12.76,-3.58
31046,31.046,-0.34,0.55,0.73,10.22,7.73,-1.52
31136,31.136,-0.32,0.56,0.73,11.79,3.14,0.49
31226,31.226,-0.32,0.57,0.74,10.51,16.44,0.19
31316,31.316,-0.3,0.62,0.72,13.09,12.57,2.92
31408,31.408,-0.33,0.61,0.72,35.82,16.13,0.72
31498,31.498,-0.4,0.7,0.8,69,-8.71,8.89
31588,31.588,-0.58,1.19,1.31,50.17,-33.7,7.47
31680,31.68,-0.47,1.49,1.65,-489.36,-63.38,-60.04
31775,31.775,-0.08,0.16,-0.24,-391.69,151.09,-32.87
31873,31.873,0.15,-0.01,0.05,116.54,296.51,71.82
31966,31.966,-0.66,-0.1,0.65,101.18,-24.91,57.1
32060,32.06,-0.68,-0.11,0.78,0.23,-165.88,-2.07
32154,32.154,-0.43,-0.27,0.52,76.29,-38.66,18.4
32247,32.247,-0.41,-0.05,0.7,73.62,-125.96,9.58
32342,32.342,-0.08,0.15,1.02,55.61,-45.78,36.1
32434,32.434,-0.81,-0.03,1.29,177.77,-26.92,66.08
32528,32.528,-0.66,0.76,1.31,63.51,52.45,11.13
32620,32.62,-0.45,0.64,0.93,37.9,22.45,4.34
32710,32.71,-0.36,0.63,0.79,3.24,9.73,-3.77
32799,32.799,-0.31,0.61,0.73,-4.21,11.96,-0.96
32891,32.891,-0.33,0.57,0.69,-3.68,17.17,0.2
32982,32.982,-0.34,0.56,0.71,2.17,12.74,-1
33073,33.073,-0.33,0.57,0.72,7.5,12.07,0.43
33162,33.162,-0.35,0.56,0.74,4.57,10.71,-1.58
33252,33.252,-0.34,0.57,0.74,5.21,12.12,-0.61
33343,33.343,-0.34,0.58,0.73,7.8,11.22,-0.1
33433,33.433,-0.34,0.58,0.75,7.19,11.02,-0.09
33523,33.523,-0.34,0.56,0.75,1.97,13.8,0.71
33613,33.613,-0.33,0.57,0.75,3,12.65,-0.88
33703,33.703,-0.33,0.56,0.72,2.32,14.04,-0.65
33794,33.794,-0.33,0.56,0.72,6.64,15.77,1.36
33884,33.884,-0.32,0.55,0.68,9,16.27,-1.38
33974,33.974,-0.27,0.62,0.64,28.83,5.12,2.81
34063,34.063,-0.3,0.58,0.71,58.29,-4.05,-7.08
34155,34.155,-0.51,0.66,0.88,52.89,-25.15,-23.61
34248,34.248,-0.61,0.9,1.27,34.54,-36.89,-28.79
34342,34.342,-0.6,1.01,1.3,-419.39,-13.14,-76.8
34438,34.438,0.09,0.07,0.16,-342.56,172.64,-21.25
34532,34.532,0.26,-0.22,-0.11,10.52,122.88,58.94
34626,34.626,-0.61,-0.44,0.52,94.05,7.95,67.2
34717,34.717,-0.57,-0.24,0.75,136.35,-187.49,22.91
34813,34.813,-0.36,0.09,1.09,135.42,-24.66,16.78
34907,34.907,-0.22,0.32,0.88,-26.81,-9.67,10.05
35000,35,-0.29,0.17,0.69,-5.97,-2.66,36.65
35091,35.091,-1.07,0.36,0.99,113.39,45.48,72.81
35183,35.183,-0.78,0.52,1.13,74.72,22.38,14
35275,35.275,-0.61,0.5,0.95,42.37,5.34,-5.57
35365,35.365,-0.42,0.56,0.82,5.26,1.38,-21.28
35456,35.456,-0.35,0.51,0.77,-9.34,1.14,-14.73
35548,35.548,-0.34,0.5,0.74,-11.03,4.44,-8.24
35639,35.639,-0.37,0.48,0.74,-8.12,6.56,-3.72
35729,35.729,-0.39,0.47,0.76,7.67,5.11,-2.71
35819,35.819,-0.4,0.46,0.78,4.35,7.17,-2.13
35908,35.908,-0.37,0.46,0.81,5.68,7.99,-3.63
35998,35.998,-0.37,0.46,0.79,3.24,10.99,-2.84
36088,36.088,-0.36,0.47,0.79,5.48,11.31,-1.93
36178,36.178,-0.36,0.48,0.79,2.37,13.93,0.48
36269,36.269,-0.39,0.46,0.78,1.8,14.25,0.22
36358,36.358,-0.38,0.46,0.78,4.57,15.03,0.65
36447,36.447,-0.39,0.45,0.8,2.75,17.72,-0.76
36538,36.538,-0.38,0.45,0.77,2.75,24.51,-1.78
36628,36.628,-0.39,0.44,0.72,2.23,33.98,0.07
36717,36.717,-0.32,0.47,0.68,35.5,23.55,-1.28
36809,36.809,-0.43,0.56,0.74,52.87,24.97,2.68
36899,36.899,-0.45,0.54,0.65,36.69,24.86,18.65
36990,36.99,-0.35,0.59,0.63,78.6,32.27,37.91
37083,37.083,-0.42,0.75,0.58,49.74,16.21,5.62
37173,37.173,-0.44,0.82,0.59,25.24,5.9,-10.45
37265,37.265,-0.44,0.68,0.51,22.75,23.51,5.45
37355,37.355,-0.53,0.76,0.47,27.45,73.52,29.01
37446,37.446,-0.49,0.8,0.41,30.23,56.67,-4.18
37538,37.538,-0.44,0.82,0.37,19.33,4.33,-8.35
37628,37.628,-0.41,0.8,0.36,15.18,-11.39,9.21
37720,37.72,-0.42,0.84,0.35,20.83,-1.76,23.9
37812,37.812,-0.35,0.88,0.39,3.53,0.27,7.58
37900,37.9,-0.37,0.85,0.38,0.05,4.1,-0.36
37989,37.989,-0.38,0.81,0.34,8.97,6.68,6.16
38078,38.078,-0.33,0.86,0.4,3.35,11.51,19.91
38168,38.168,-0.29,0.88,0.39,3.07,16.48,6.72
38257,38.257,-0.32,0.88,0.31,13.65,15.52,-15.19
38350,38.35,-0.28,0.88,0.43,-12.26,-1.43,-4.8
38443,38.443,-0.32,0.85,0.43,8.38,-4.13,-20.91
38535,38.535,-0.31,0.84,0.49,-18.85,-14.42,-18.16
38629,38.629,-0.28,0.78,0.5,-36.91,11.86,-2.47
38721,38.721,-0.32,0.79,0.54,-19.29,23.14,-1.89
38814,38.814,-0.37,0.85,0.68,-20.73,52.5,4.89
38905,38.905,-0.29,0.7,0.77,-182.49,157.69,-48.22
39002,39.002,-0.71,0.53,0.81,-175.46,15,-3.63
39095,39.095,-0.62,0.25,0.78,-98.93,49.32,-23.75
39188,39.188,-0.51,0.08,0.4,-53.66,11.28,-16.71
39282,39.282,-0.48,0.05,0.54,-4.29,-68.25,-19.87
39375,39.375,-0.37,0.11,0.79,52.77,-23.04,-12.64
39470,39.47,-0.37,0.14,0.95,29.45,7.25,-5.61
39560,39.56,-0.43,0.15,0.91,-0.21,19.9,6.23
39650,39.65,-0.46,0.14,0.82,12.92,19.05,-2.13
39742,39.742,-0.43,0.13,0.84,17.12,9.8,-3.98
39832,39.832,-0.43,0.15,0.86,11.35,19.78,-5.08
39923,39.923,-0.44,0.16,0.89,10.71,9.57,-0.5
40014,40.014,-0.42,0.17,0.85,17.68,7.81,5.56
40103,40.103,-0.43,0.17,0.86,5.39,12.91,0.4
40194,40.194,-0.32,-0.08,0.95,-9.72,113.58,-8.85
40287,40.287,0.35,0.15,1.91,39.03,513.87,-57.84
40379,40.379,1.01,0.33,-1.27,-20.5,198.32,-87.75
40474,40.474,0.29,0.18,-1.18,25.26,37.26,-21.61
40566,40.566,0.2,0.14,-1.08,19.07,-32.22,14.91
40659,40.659,0.15,0.15,-1.05,4.57,-9.27,-4.25
40750,40.75,0.13,0.14,-1.01,-13.51,-15.14,-6
40843,40.843,0.14,0.16,-1.03,11.36,26.12,-3.38
40935,40.935,0.19,0.16,-1.03,-2.13,12.67,-5.52
41026,41.026,0.16,0.2,-1.03,6.06,11.09,-3.38
41116,41.116,0.16,0.19,-1.04,1.16,-2.91,-2.38
41207,41.207,0.14,0.15,-1.04,-8.36,-10.68,-1.34
41299,41.299,0.08,0.18,-1.07,-3.84,-25.78,4.25
41392,41.392,0.09,0.25,-1.04,-82.24,-480.88,80.2
41486,41.486,-1.06,0.39,0.3,-194.78,-486.66,-74.12
41582,41.582,-0.56,0.14,0.83,10.83,-56.62,-267.75
41677,41.677,-0.36,-0.2,0.88,53.18,-83.53,-46.51
41772,41.772,-0.5,-0.14,0.97,33.18,31.58,13.29
41865,41.865,-0.4,-0.12,0.96,22.16,20.27,-9.23
41957,41.957,-0.39,-0.08,0.9,9.5,16.35,0.22
42047,42.047,-0.51,-0.04,0.97,29.36,59.6,9.58
42139,42.139,-1.13,0.06,1.18,144.29,513.87,4.45
42231,42.231,0.21,0.06,0.01,1.71,513.87,-187.96
42324,42.324,0.13,0.27,-1.15,-80.27,173.89,-11.06
42419,42.419,0.09,0.21,-1.15,-45.57,37.75,-6.48
42511,42.511,-0.07,0.19,-1.06,-5.58,-56.31,14.36
42605,42.605,-0.14,0.19,-1.03,2,12.68,3.2
42695,42.695,-0.07,0.19,-1.04,5.5,8.15,-4.64
42786,42.786,-0.08,0.22,-1.05,2.6,-9.68,-4.77
42877,42.877,-0.06,0.22,-1.05,16.16,13.93,-2.79
42970,42.97,-0.1,0.17,-1,40.86,-62.91,4.77
43063,43.063,-0.18,0.2,-0.99,14.64,-238.65,38
43157,43.157,-0.75,0.05,0.36,-135.25,-486.66,96.94
43253,43.253,-0.51,0.22,1.17,68.78,22.44,-82.73
43345,43.345,-0.52,0.13,0.89,-28.3,-66.69,-22.58
43440,43.44,-0.49,0.09,0.93,21.85,21.26,-2.44
43532,43.532,-0.52,0.12,0.86,9.26,25.75,2.66
43621,43.621,-0.52,0.12,0.83,6.6,19.23,-8.88
43711,43.711,-0.51,0.1,0.83,1.06,10.41,-7.52
43802,43.802,-0.51,0.11,0.86,-0.59,9.73,-6.24
43892,43.892,-0.51,0.12,0.84,-3.48,10.1,-4.5
43983,43.983,-0.48,0.07,0.82,-0.85,10.86,-3.09
44076,44.076,-0.48,0.08,0.82,6.22,13.41,-4.15
44166,44.166,-0.49,0.07,0.86,11.06,11.44,-1.08
44258,44.258,-0.51,0.06,0.88,6.77,12.04,-1.52
44348,44.348,-0.49,0.06,0.85,0.38,11.29,-4.74
44438,44.438,-0.49,0.09,0.86,5.24,8.7,-3.71
44528,44.528,-0.53,0.11,0.82,1.55,11.57,-5.16
44618,44.618,-0.51,0.04,0.88,12.4,9.35,-7.03
44708,44.708,-0.43,-0.77,0.95,13.32,20.53,-6.5
44802,44.802,-0.34,-0.56,0.81,-27.28,3.49,-26.85
44895,44.895,-0.34,0.82,0.65,45.15,13.28,31.06
44987,44.987,-0.61,0.52,0.93,34.77,25.69,24.36
45078,45.078,-0.53,0.23,0.94,3.32,9.81,-0.88
45167,45.167,-0.51,0.16,0.79,-5.84,14.99,9.18
45258,45.258,-0.5,0.15,0.85,2.48,7.73,-0.47
45347,45.347,-0.48,0.11,0.86,-0.27,11.05,2.28
45437,45.437,-0.49,0.13,0.85,-0.5,15.92,6.98
45529,45.529,-0.53,0.43,0.86,-6.68,19.63,0.63
45619,45.619,-0.54,1.09,1.07,4.29,24.79,1.59
45708,45.708,-0.31,0.09,0.22,-107.37,-4.11,-13.61
45803,45.803,-0.36,-0.89,0.83,74.02,-19.52,-29.05
45897,45.897,-0.54,-0.31,1.24,27.51,-6.05,-25.34
45991,45.991,-0.44,0.01,0.96,-4.64,8.48,-11.55
46083,46.083,-0.35,0.01,0.86,-8.47,5.49,-7.09
46173,46.173,-0.37,-0.01,0.86,0.71,7.34,-2.12
46264,46.264,-0.39,-0.03,0.91,5.32,9.48,-2.35
46354,46.354,-0.39,-0.02,0.93,4.34,13,-0.12
46445,46.445,-0.38,-0.08,0.88,8.31,15.09,4.31
46536,46.536,-0.47,-0.46,1.01,1.26,15.69,15.03
46627,46.627,-0.36,-0.99,0.94,-8.78,29.7,-7.4
46721,46.721,-0.16,0.43,0.51,-4.15,23.57,-4.13
46812,46.812,-0.64,0.83,0.93,66.34,44.39,49.82
46903,46.903,-0.44,0.29,0.9,-10.88,8.73,8.91
46994,46.994,-0.51,0.1,0.89,6.09,15.22,6.84
47083,47.083,-0.49,0.06,0.91,3.65,16.1,-3.37
47173,47.173,-0.43,0.08,0.88,2.16,22.16,1.65
47263,47.263,-0.44,0.28,0.86,-6.79,38.65,18.26
47354,47.354,-0.52,0.77,0.66,-35.57,22.32,-0.1
47448,47.448,-0.28,0.42,0.56,41.9,-9.01,-39.96
47540,47.54,-0.56,-0.73,1.21,76.25,-58.36,-20.8
47634,47.634,-0.42,-0.42,0.93,-2.56,-30.28,-23.81
47729,47.729,-0.4,0.04,0.97,-0.21,4.94,-9.83
47819,47.819,-0.42,0.11,0.89,-5.6,11.19,2.94
47909,47.909,-0.37,0.14,0.81,12.55,3.34,-0.45
48001,48.001,-0.44,0.08,0.87,12.32,3.96,-1.63
48091,48.091,-0.5,-0.04,0.96,5.04,5.37,2.14
48181,48.181,-0.45,-0.02,0.9,12.06,4.71,-1.31
48272,48.272,-0.43,0.13,0.85,-44.01,11.7,20.48
48364,48.364,-0.43,0.11,0.81,12.63,12.3,-0.12
48456,48.456,0.21,-0.11,1.22,17.21,8.61,-16.44
48547,48.547,0.34,0.27,1.27,-77.87,30.76,186.68
48640,48.64,-1.27,0.42,0.37,-82.7,-44.01,89.35
48734,48.734,-0.89,0.1,0.78,6.4,-7.96,30.8
48824,48.824,-0.54,0.06,0.93,3.16,20.24,-0.19
48915,48.915,-0.31,0.07,0.93,3.13,14.33,-16.5
49006,49.006,-0.42,0.07,0.86,11.1,13.99,-15
49098,49.098,-1.27,0.05,0.71,14.11,27.34,-37.87
49191,49.191,-1.01,0.41,0.26,132.74,2.99,-212.77
49285,49.285,0.6,0.72,1.42,78.57,44.36,-159.84
49378,49.378,0.26,0.23,1.22,12.05,51.9,-11.32
49469,49.469,-0.24,0.04,0.82,-2.96,37.6,23.81
49560,49.56,-0.38,0.01,0.88,11.06,-2.78,-9.02
49652,49.652,-0.36,0.03,0.94,4.83,24.56,13.21
49742,49.742,0.12,0.15,1.27,2.35,47.32,26.62
49831,49.831,0.95,0.72,1.35,-117.68,86.94,198.54
49926,49.926,-1.62,0.56,0.15,-148.27,39.38,241.88
50020,50.02,-1.47,0.21,0.53,8.37,-59.06,22.02
50112,50.112,-0.68,0.17,1,50.26,-36.56,-13.81
50205,50.205,-0.38,0.11,0.93,-1.98,17.14,-11.6
50297,50.297,-0.37,0.11,0.9,-1.34,1.32,-15.25
50390,50.39,-0.69,0.16,0.68,1.7,6.22,-5.89
50479,50.479,-1.51,0.13,0.58,18.06,55.6,-42.96
50571,50.571,-0.8,0.52,0.6,98.48,47.03,-213.16
50665,50.665,0.81,0.6,1.52,138.72,-4.48,-159.72
50758,50.758,0.1,0.3,1.18,-31.33,-12.4,4.6
50850,50.85,-0.37,0.08,0.82,-18.29,27.55,21.36
50942,50.942,-0.5,0.04,0.9,9.03,7.96,2.86
51031,51.031,-0.52,0.09,0.83,-4.9,23.22,0.87
51122,51.122,-0.53,0.08,0.8,1.38,11.14,2.86
51211,51.211,-0.52,0.07,0.88,2.42,22.16,7.58
51300,51.3,-0.48,0.06,0.89,3.12,17.17,1.42
51390,51.39,-0.51,0.05,0.8,-9.81,22.51,8.54
51480,51.48,-0.53,0.06,0.78,8.49,20.57,-0.39
51570,51.57,-0.5,0.06,0.86,16.52,18.7,-3.17
51662,51.662,-0.49,0.06,0.84,7.71,14.44,-2.18
51752,51.752,-0.51,0.06,0.83,8.26,18.06,-0.53
51844,51.844,-0.52,0.07,0.84,4.78,21.09,4.39
51933,51.933,-0.54,0.07,0.81,1.9,19.78,3.7
52022,52.022,-0.56,0.07,0.83,1.76,17.11,1.73
52112,52.112,-0.58,0.06,0.8,2.78,21.78,4.1
52201,52.201,-0.6,0.07,0.8,7.8,24.22,-1.87
52291,52.291,-0.56,0.09,0.79,8.81,33.67,0.14
52381,52.381,-0.59,0.11,0.74,2.52,25.03,6.23
52470,52.47,-0.59,0.11,0.76,17.27,26.91,1.73
52560,52.56,-0.63,0.09,0.76,13.77,24.03,7.67
52652,52.652,-0.75,0.14,0.97,3.07,14.79,-1.49
52742,52.742,-0.74,0.13,1.72,-85.54,-12.01,-60.85
52836,52.836,0.15,0.03,0.63,-145.11,110.3,20.05
52930,52.93,0.12,0.22,-0.21,-136.24,92.94,165.33
53024,53.024,-0.79,0.57,-0.85,21.45,177.48,203.07
53120,53.12,-1.43,0.89,-0.92,234.98,183.57,120.97
53215,53.215,-1.63,0.68,-0.26,225.99,0.71,20.52
53308,53.308,-1.65,0.76,0.32,203.67,-45.03,-53.22
53402,53.402,-1.03,0.59,0.78,100.37,15.37,-158.5
53496,53.496,-0.3,0.18,0.4,-108.44,29.83,-142.04
53593,53.593,-0.02,0.08,-0.25,-154.09,142.94,-58.22
53689,53.689,0.14,0.17,-0.74,-206.03,125.2,44.62
53784,53.784,-0.54,1.21,-2,-202.9,-132.43,93.2
53880,53.88,-1.01,0.36,-1.49,95.87,-51.61,115.84
53976,53.976,-1.38,0.23,-0.87,158.25,-80.11,60.71
54070,54.07,-1.57,0.24,-0.48,150.08,-123.04,-60.44
54166,54.166,-0.88,0.45,0.58,-25.07,-112.36,-182.9
54263,54.263,-0.05,0.17,0.18,-127.08,45.51,-106.38
54359,54.359,0.1,0.18,-0.29,-195.22,38.22,10.71
54453,54.453,-0.15,0.42,-1,-175,-41.35,120.1
54549,54.549,-1.27,0.86,-1.53,16.58,78.86,144.37
54643,54.643,-1.45,0.34,-0.83,138.22,-126.77,104.4
54739,54.739,-1.65,0.34,0.08,147.12,-106.19,-19.22
54836,54.836,-1.4,0.44,0.84,52.61,-31.76,-133.64
54930,54.93,-0.67,0.27,0.84,-75.4,-28.81,-146.56
55025,55.025,-0.11,0.11,0.24,-142.09,46.48,-76.41
55120,55.12,0.07,0.11,-0.29,-181.25,32.68,42.86
55214,55.214,-0.32,0.37,-1.06,-149.33,4.83,157.97
55309,55.309,-1.51,0.87,-0.9,48.89,215.98,167.75
55403,55.403,-1.42,0.49,-0.35,54.98,88.77,52.02
55495,55.495,-1.05,0.35,-0.33,11.67,15.35,-7.69
55588,55.588,-0.84,0.33,-0.37,19.04,3.89,-17.19
55681,55.681,-0.75,0.31,-0.39,2.67,-0.95,-13.67
55774,55.774,-0.77,0.35,-0.44,3.07,6.71,-1.71
55864,55.864,-0.83,0.37,-0.4,4.58,-5.27,0.94
55954,55.954,-0.87,0.35,-0.33,0.69,-35.97,-0.1
56047,56.047,-0.94,0.35,-0.22,-8.64,-116.01,-2.01
56141,56.141,-0.91,0.32,0.07,-2.33,-228.57,-16.39
56237,56.237,-0.83,0.2,0.7,-17.39,-378.69,-35.48
56332,56.332,-0.38,0.17,1,-39.83,-101.99,-83.26
56427,56.427,-0.23,0.04,0.76,-19.45,-17.68,-27.87
56522,56.522,-0.31,0.05,1,0.29,5.83,-14.64
56612,56.612,-0.3,0.02,0.97,-9.23,4.79,-12.84
56705,56.705,-0.26,0,0.92,3.85,10.73,-7.95
56796,56.796,-0.28,-0.01,0.93,1.16,12.18,-4.9
56887,56.887,-0.28,0.01,0.95,7.93,15.03,-0.85
56978,56.978,-0.28,0.01,0.94,6.06,11.4,-0.44
57068,57.068,-0.29,0.03,0.93,13.04,15.81,-1.37
57159,57.159,-0.3,0.04,0.96,18.06,19.03,-0.77
57251,57.251,-0.29,0.05,0.94,18.89,15,-3.16
57342,57.342,-0.31,0.06,0.96,11.22,13.66,-4.5
57435,57.435,-0.28,0.05,0.95,7.01,16.41,-3.17
57525,57.525,-0.31,0.07,0.91,5.91,18.42,-3.26
57615,57.615,-0.32,0.08,0.94,13.29,18.45,-4.55
57707,57.707,-0.33,0.08,0.95,19,16.67,-13.92
57799,57.799,-0.42,0.09,1.04,36.98,34.07,-49.83
57891,57.891,-0.32,0.03,0.79,14.17,17.09,-38.38
57985,57.985,-0.32,0.14,0.85,23.12,27.32,-19.22
58077,58.077,-0.36,0.15,0.9,27.55,97.37,-5.08
58169,58.169,-0.8,-0.02,0.79,1.8,354.33,-14.5
58262,58.262,-0.91,0.18,0.27,-31.51,191.84,10.87
58355,58.355,-1.01,0.15,0.28,-66.32,17.84,-9.71
58448,58.448,-0.87,0.13,0.05,-21.02,10.07,-10.06
58542,58.542,-0.93,0.13,0.05,3.03,12.44,-2.1
58633,58.633,-0.97,0.13,0.06,5.84,6.71,0.42
58721,58.721,-0.83,0.13,0.43,13.36,17.66,5.76
58811,58.811,-0.89,0.34,2,-95.74,63.28,9.68
58903,58.903,-0.85,0.83,-0.59,-370.47,-84.51,1.81
58997,58.997,-0.95,0.48,-1.04,-79.28,33.11,13.03
59090,59.09,-1.01,0.33,-0.33,-5.34,-1.59,28.05
59184,59.184,-0.97,0.2,0.08,15.7,34.82,5.82
59274,59.274,-0.93,0.17,0.13,26.29,6.97,-0.7
59365,59.365,-0.93,0.2,0,12.95,8.99,0.84
59454,59.454,-1.06,0.43,-0.66,46.19,-6.97,6.43
59545,59.545,-1.06,0.57,-1.11,153.16,-28.98,-32.79
59641,59.641,-0.66,0.74,0.71,276.42,17.87,-25.13
59735,59.735,-1.09,0.39,1.07,-23.6,-12.16,8.39
59828,59.828,-0.83,0.19,0.23,-6.06,51.93,-4.15
59919,59.919,-0.88,0.21,-0.06,-3.48,5.57,-3.2
60010,60.01,-0.99,0.24,0.02,-0.96,12.42,5.29
60101,60.101,-0.98,0.25,0.06,-17.07,37.35,0.97
60192,60.192,-0.99,0.28,0.03,-18.68,64.96,-1.58
60284,60.284,-1.22,0.29,-0.17,-9.78,132.53,-30.64
60380,60.38,-1.01,0.14,-0.62,4.97,220.56,-92.22
60473,60.473,-0.43,-0.07,-0.85,11.87,179.92,-91.87
60569,60.569,-0.11,-0.04,-0.88,7.76,177.46,-31.23
60663,60.663,-0.07,-0.07,-0.94,2.35,93.98,-15.87
60758,60.758,-0.07,-0.07,-1.04,1.09,43.57,-10.39
60851,60.851,-0.08,-0.07,-1.03,5.77,27.83,-1.6
60943,60.943,-0.09,-0.09,-1,6.14,19.73,-0.06
61036,61.036,-0.09,-0.07,-1.01,3.76,31.93,4.86
61127,61.127,-0.07,-0.09,-0.74,5.58,20.93,1.96
61218,61.218,0.21,-0.28,0.45,105.48,-38.08,-44.41
61314,61.314,0.1,0.98,-1.2,-443.42,64.36,87.52
61407,61.407,-0.23,1.01,-1.78,-58.55,11.87,24.98
61501,61.501,-0.14,0.54,-1.11,27.03,16.07,3.94
61592,61.592,-0.03,0.56,-1.02,-7.13,4.45,4.8
61682,61.682,-0.13,0.63,-1.08,10.86,1.38,0.33
61773,61.773,-0.17,0.67,-1.28,46.71,-5.68,-14.41
61867,61.867,-0.11,0.7,-1.53,95.39,-7.1,-18.01
61961,61.961,-0.23,0.37,-0.8,157.7,5.08,-29.38
62054,62.054,0,-0.23,-0.29,47.62,3.14,-26.41
62147,62.147,-0.02,-0.08,-0.74,12.16,9.17,0.89
62239,62.239,-0.11,-0.06,-1,-5.71,17.54,6.16
62331,62.331,-0.09,-0.06,-0.98,-2.73,13.37,-2.93
62426,62.426,-0.1,-0.07,-0.67,-2.91,12.86,-3.38
62519,62.519,0.07,-0.22,0.07,-17.31,-16.94,-20.19
62613,62.613,-0.08,0.75,-1.25,-276.33,42.99,79.07
62708,62.708,-0.15,0.86,-1.71,-66.36,-11.53,24.25
62802,62.802,-0.17,0.56,-1.17,6.61,29.96,-2.73
62895,62.895,-0.09,0.52,-1.08,-3.81,3.9,4.83
62985,62.985,-0.15,0.59,-1.23,10.61,1.77,-6.18
63076,63.076,-0.31,0.82,-1.88,50.4,-89.87,-2.39
63170,63.17,-0.46,0.73,-0.65,194.34,-53.81,-119.64
63266,63.266,0.17,-0.24,-0.04,123.07,60.33,-34.03
63362,63.362,-0.12,-0.17,-0.47,8.55,15.31,-4.3
63454,63.454,-0.39,-0.05,-0.89,-49.05,-25.18,7.94
63548,63.548,-0.39,-0.03,-0.91,-9.52,47.03,6.49
63641,63.641,-0.45,0.08,-0.87,-11.23,-29.55,2.37
63734,63.734,-0.49,0.14,-0.84,-58.01,-82.31,4.36
63828,63.828,-0.49,0.18,-1.02,-36.78,-14.92,10.97
63923,63.923,-0.57,0.22,-0.9,-18.47,-115.64,5.75
64017,64.017,-0.76,0.28,-0.63,4.11,-126.08,11.76
64111,64.111,-0.88,0.3,-0.07,19.12,-486.66,-15.69
64206,64.206,-0.79,0.18,0.63,-77.34,-358.1,-67.22
64303,64.303,-0.38,0.04,0.92,26.57,-23.56,-34.47
64396,64.396,-0.44,0.04,0.88,-14.39,-12.66,-13.96
64491,64.491,-0.39,0.02,0.79,14.37,-15.81,-19.55
64584,64.584,-0.37,0.05,0.86,70.57,-33.06,-39.6
64677,64.677,-0.27,0.09,1.07,28.57,-38.45,-26.61
64772,64.772,-0.27,0.12,0.97,28.9,5.57,3.88
64861,64.861,-0.28,0.16,0.99,13.97,9.98,2.37
64950,64.95,-0.27,0.23,1.54,39.39,0.71,-3.26
65041,65.041,-0.46,0.81,2,-250.16,-43.41,-16.77
65136,65.136,-0.04,0.11,-0.36,-271.13,81.63,-10.9
65232,65.232,0.01,-0.3,-0.45,-41.6,1.66,-3.58
65325,65.325,0,-0.38,0.27,23.38,4.54,-2.91
65416,65.416,-0.16,-0.4,0.45,90.83,29.86,18.98
65509,65.509,-0.1,-0.14,-0.11,105.26,43.06,40.07
65603,65.603,-0.14,0.73,0.84,312.26,168.9,92.94
65697,65.697,-0.67,0.62,2,125.97,-0.11,31.39
65789,65.789,-0.32,0.13,1.09,32.69,12.19,4.89
65880,65.88,-0.5,0.16,1.14,4.02,6.85,1.78
65969,65.969,-0.43,0.41,1.37,-0.55,-7.81,-14.33
66061,66.061,-0.55,0.34,2,-154.18,-3.07,-21.25
66156,66.156,-0.36,0.32,1.64,-221.54,16.76,-49.49
66250,66.25,0.02,0.19,-0.09,-159.58,99.48,-35.67
66344,66.344,-0.01,-0.2,-0.31,-21.17,0.76,-5.37
66439,66.439,-0.18,-0.33,0.18,33.01,13.08,6.37
66530,66.53,-0.15,-0.16,0.07,70.89,24.83,21.06
66623,66.623,-0.03,0.19,-0.15,183.07,-5.47,43.82
66716,66.716,-0.49,0.85,2,297.22,-3.36,64.42
66808,66.808,-0.66,0.3,1.9,89.68,44.85,18.62
66900,66.9,-0.48,0.22,1.11,15.09,2.28,8.98
66990,66.99,-0.34,0.32,0.98,5.79,20.35,-10.8
67082,67.082,-0.28,0.28,0.85,-9.65,13.2,-7.09
67173,67.173,-0.33,0.29,0.85,-10.49,16.51,-1.81
67265,67.265,-0.34,0.3,0.86,8.19,36.36,-5.67
67356,67.356,-0.34,0.28,0.9,8.81,9.26,-4.79
67445,67.445,-0.34,0.25,0.98,-11.74,1.75,-4.51
67536,67.536,-0.21,0.14,1.27,11.85,73.63,-5.58
67629,67.629,-0.02,0.18,1.23,25.88,513.87,8.69
67720,67.72,0.67,-0.1,-0.94,-4.27,346.91,-167.03
67816,67.816,-0.22,0.26,-1.1,-75.86,-142.1,2.92
67910,67.91,-0.22,0.2,-1.11,-1.71,-28.65,-13.09
68004,68.004,-0.42,0.31,-1.06,76.25,1,0.63
68096,68.096,-0.26,0.07,-0.87,-7.86,-4.25,-13.28
68189,68.189,-0.24,0.15,-0.99,-14.03,1.77,0.04
68281,68.281,-0.36,0.18,-0.92,2.42,6.38,4.89
68370,68.37,-0.29,0.19,-0.99,-8.15,19.93,-3.35
68462,68.462,-0.43,0.37,-1.21,100.77,-10.48,-32.5
68558,68.558,-0.53,0.98,-1.01,86.97,-39.3,-33.81
68653,68.653,-0.07,-0.48,-0.59,11.55,13.02,-26.06
68748,68.748,-0.36,-0.96,-1.02,-36.52,30.16,13.3
68842,68.842,-0.35,-0.93,-0.93,33.42,15.2,-17.69
68936,68.936,-0.16,-1.41,-0.51,57.7,79.96,-54.1
69031,69.031,-0.54,1.1,-1.44,-62.84,-6.13,19.12
69125,69.125,-0.22,0.71,-0.98,30.45,134.8,-30.64
69220,69.22,-0.07,0.16,-1.13,-18.16,38.33,7.16
69312,69.312,-0.17,0.2,-1.03,13.88,-0.02,2.55
69403,69.403,-0.19,0.67,-0.93,14.45,-18.17,-12.16
69498,69.498,-0.64,0.05,-0.62,73.7,-7.15,23.39
69591,69.591,-0.33,-0.76,-0.85,-75.36,24.3,50.34
69686,69.686,-0.39,-0.72,-1.37,-267.62,126.61,31.3
69782,69.782,-0.48,-0.41,-1.17,21.41,167.61,78.04
69877,69.877,-0.39,-1.16,-0.67,12.63,3.32,-0.19
69969,69.969,-0.33,0.28,-1.09,12.77,3.17,-0.42
70061,70.061,-0.45,1.33,-0.95,12.86,3.46,-0.18
70153,70.153,0,0.59,-0.64,13,3.41,-0.36
70243,70.243,-0.15,0.6,-0.82,12.74,3.31,-0.22
70334,70.334,-0.19,1.01,-0.93,-16.35,11.4,31
70428,70.428,-0.28,0.42,-0.62,27.01,0.12,-73.25
70520,70.52,-0.26,-0.68,-1.31,-56.04,21.34,19.39
70616,70.616,-0.51,-0.29,-1.22,-9.25,11.25,21.68
70709,70.709,-0.41,0.11,-0.94,10.23,20.77,-5.49
70801,70.801,-0.31,0.26,-0.9,14.95,11.92,-8.06
70894,70.894,-0.29,0.24,-0.93,7.97,16.01,-5.19
70985,70.985,-0.28,0.22,-0.97,-0.64,14.73,-1.66
71078,71.078,-0.32,0.2,-0.97,8.51,14.71,5.67
71169,71.169,-0.35,0.17,-0.96,1.68,11.22,3.68
71259,71.259,-0.34,0.17,-0.96,9.41,12.9,1.62
71350,71.35,-0.35,0.17,-0.93,9.22,8.27,3.16
71439,71.439,-0.33,0.18,-0.96,5.8,12.21,0.07
71529,71.529,-0.34,0.18,-0.99,10.66,12.12,-0.03
71622,71.622,-0.35,0.16,-0.95,9.61,8.94,1.03
71711,71.711,-0.36,0.16,-0.93,6.42,8.93,3.33
71800,71.8,-0.37,0.16,-0.94,1.48,8.74,3.52
71890,71.89,-0.35,0.18,-0.96,2.69,16.03,1.27
71981,71.981,-0.36,0.19,-0.96,2.43,15.57,2.86
72071,72.071,-0.34,0.17,-0.96,4.57,14.73,0.66
72162,72.162,-0.35,0.17,-0.96,7.53,13.61,1.09
72252,72.252,-0.36,0.17,-0.96,7.38,12.54,-1.6
72344,72.344,-0.33,0.16,-0.95,7.21,12.9,-0.88
72435,72.435,-0.35,0.18,-0.95,3.77,13.23,2.4
72525,72.525,-0.36,0.15,-0.94,4.97,14.53,0.51
72616,72.616,-0.34,0.16,-0.95,4.83,12.36,1.33
72707,72.707,-0.35,0.17,-0.95,7.87,11.23,0.17
72797,72.797,-0.35,0.16,-0.95,4.84,13.77,-0.39
72889,72.889,-0.37,0.16,-0.96,6.37,13.34,0.46
72979,72.979,-0.36,0.15,-0.95,6.49,13.99,0.51
73069,73.069,-0.36,0.15,-0.94,6.08,13.25,0.46
73160,73.16,-0.37,0.15,-0.95,5.12,13.26,1.32
73250,73.25,-0.35,0.14,-0.94,4.95,13.98,0.49
73341,73.341,-0.37,0.14,-0.96,4.4,13.99,-0.06
73433,73.433,-0.34,0.13,-0.94,4.86,14.03,-0.21
73524,73.524,-0.34,0.15,-0.94,5.58,14.93,1.88
73615,73.615,-0.38,0.16,-0.95,5.07,12.59,3.35
73705,73.705,-0.36,0.14,-0.96,5.33,13.51,-0.64
73796,73.796,-0.36,0.15,-0.95,4.74,14.03,0.05
73887,73.887,-0.36,0.14,-0.94,5.99,13.73,-1.03
73978,73.978,-0.37,0.16,-0.96,4.97,15,-0.73
74071,74.071,-0.36,0.15,-0.95,4.06,15.4,0.05
74161,74.161,-0.35,0.16,-0.94,7.44,17.48,-1.32
74252,74.252,-0.36,0.14,-0.95,3.96,14.44,-0.04
74344,74.344,-0.34,0.16,-0.94,4.54,15.11,-0.93
74435,74.435,-0.35,0.14,-0.92,3,13.37,0.71
74525,74.525,-0.35,0.16,-0.94,2.35,12.42,1.93
74616,74.616,-0.28,0.17,-0.87,0.23,16.16,-2.82
74707,74.707,-0.39,0.3,-0.86,-15.66,12.03,2.02
74800,74.8,-0.39,0.18,-0.93,-21.54,18.94,4.58
74893,74.893,-0.41,0.11,-0.97,10.69,4.56,35.3
74984,74.984,-0.58,0.33,-1.08,12.54,3.43,-0.38
75076,75.076,-0.44,0.24,-0.88,12.38,3.4,-0.32
75167,75.167,-0.41,0.24,-0.95,21.55,6.48,4.17
75257,75.257,-0.39,0.25,-0.97,14.34,4.41,-1.05
75350,75.35,-0.33,0.17,-0.92,47.73,18.65,30.19
75442,75.442,-0.37,0.15,-0.91,14.4,5.12,0.84
75533,75.533,-0.45,0.08,-0.9,22.31,6.5,5.32
